 accX_mean, accX_std_deviation, accX_variance, accX_median, accX_min, accX_max, accX_add, accY_mean, accY_std_deviation, accY_variance, accY_median, accY_min, accY_max, accY_add, accZ_mean, accZ_std_deviation, accZ_variance, accZ_median, accZ_min, accZ_max, accZ_add, average_resultant_acceleration,class
6733.090909090909,294.93218158677973,86984.99173553723,6848.0,6032,7056,241.71900826446281,-2164.3636363636365,324.842695561258,105522.77685950414,-2192.0,-2496,-1312,239.60330578512398,5480.727272727273,988.318414913027,976773.2892561981,5184.0,4352,7616,825.6528925619838,8947.477553954097,Midair-S
3987.2,914.2092539457254,835778.5599999998,3984.0,2496,5536,761.6,896.0,827.2170211014761,684288.0,888.0,-624,1968,716.8,9476.8,562.8294235378957,316776.9599999999,9608.0,8240,10080,467.84000000000015,10320.383620776893,Midair-S
1057.6,881.0597255578081,776266.2400000001,1152.0,-272,2224,769.6,619.2,1040.124300264156,1081858.5599999998,824.0,-1200,1952,916.8,5753.6,2563.299873210312,6570506.240000001,6432.0,1072,8960,2228.48,5882.672807491507,Midair-S
-2595.2,638.5503582333972,407746.56000000006,-2944.0,-3152,-1200,526.72,-3284.8,1432.2466826632904,2051330.56,-3512.0,-5312,-1344,1265.6,-3640.0,2466.743926717972,6084825.6,-4064.0,-7312,256,2153.6,5547.483580867995,Midair-S
-2748.8,161.24317039800474,25999.36,-2720.0,-2960,-2528,146.56000000000003,-6681.6,1551.0793145419739,2405847.04,-5968.0,-9360,-5184,1409.92,-10590.4,1639.1443621597214,2686794.24,-10464.0,-13232,-8160,1448.0,12820.150239369272,Midair-S
-3603.2,1373.6500864485104,1886914.56,-3064.0,-6176,-2288,1200.64,-9192.0,680.3763664325797,462912.0,-9496.0,-9888,-8160,627.2,-12384.0,2365.4797399259205,5595494.4,-13416.0,-14768,-7568,2070.4,15837.909276163948,Midair-S
-7524.8,725.0683829819087,525724.16,-7616.0,-8480,-6464,648.0,-7721.6,1463.0720556418264,2140579.84,-8080.0,-9520,-5712,1344.0,-552.0,3974.26118920234,15794751.999999998,-1272.0,-6112,6160,3470.4,10795.852240559798,Midair-S
-7403.2,202.5185423609404,41013.76000000002,-7448.0,-7760,-7152,178.56000000000003,-4908.8,907.1534379585408,822927.36,-5000.0,-6240,-3600,752.64,10769.6,3688.549720418582,13605399.04,9752.0,6832,16288,3352.320000000001,13960.228215899624,Midair-S
-6803.2,249.3947874355036,62197.75999999999,-6848.0,-7088,-6384,230.4,-8488.0,1437.032497892793,2065062.4,-8896.0,-9984,-4784,1020.8,14083.2,823.3022288321587,677826.5599999999,14200.0,12496,15680,620.1599999999999,17795.117208942458,Midair-S
-8174.4,858.5442562850211,737098.24,-8640.0,-9152,-6848,811.5200000000002,-12793.6,1368.3732824050608,1872445.44,-12656.0,-15056,-10784,1169.92,6664.0,3259.5754324758313,10624832.0,7864.0,720,11120,2835.2,16580.286858797106,Midair-S
-6092.8,608.1178833088203,369807.36,-6248.0,-6784,-4976,506.88,-12768.0,1310.2622638235446,1716787.2,-12200.0,-15568,-11632,1097.6,-603.2,289.24619271478747,83663.36,-616.0,-1072,-208,235.2,14160.080722933753,Midair-S
157.0909090909091,671.4393568427124,450830.8099173553,144.0,-1008,1072,572.8264462809917,-6925.090909090909,679.5358649368974,461768.99173553725,-6928.0,-8112,-6080,550.0826446280992,2645.818181818182,358.6981050667991,128664.33057851244,2656.0,2032,3200,292.2314049586776,7414.979130390877,Backhand Tennis
-4512.0,2743.9137012668602,7529062.4,-3864.0,-9344,-976,2422.4,-9376.0,892.3066737394715,796211.2,-9448.0,-10432,-8272,857.6,-376.0,1375.0368722328867,1890726.4,-480.0,-2912,2096,1022.4,10411.9592776768,Backhand Tennis
-15326.4,5387.594401957148,29026173.44,-13392.0,-26848,-9808,4468.48,-16182.4,3045.285510424269,9273763.84,-17000.0,-20208,-10992,2622.72,-3355.2,4369.787473092942,19095042.559999995,-5032.0,-7456,6688,3526.7200000000007,22539.43153142953,Backhand Tennis
-32393.6,618.2794190331747,382269.44,-32624.0,-32624,-30544,369.9200000000012,-14792.0,5226.180249474754,27312960.0,-15856.0,-21008,-8096,4862.4,9507.2,4612.291335117504,21273231.360000007,9200.0,3024,16368,4160.0,36858.3157075849,Backhand Tennis
-21712.0,8476.745035684393,71855206.4,-21104.0,-32624,-10656,7644.8,2144.0,5452.705163494538,29731993.6,2584.0,-6640,9344,4732.8,14076.8,1871.6006411625322,3502888.96,14416.0,10112,16000,1584.0,25964.667882335794,Backhand Tennis
-6064.0,1898.0748141208765,3602687.9999999995,-5424.0,-9456,-4160,1680.0,-881.6,552.2411067640654,304970.24000000005,-776.0,-1712,272,446.72000000000014,11091.2,1683.5588970986432,2834370.56,11896.0,8672,12880,1605.7599999999998,12671.3863487781,Backhand Tennis
-2892.8,739.2207789287311,546447.3599999999,-2840.0,-4192,-1920,694.4,-2105.6,1159.9326877021788,1345443.8400000005,-2192.0,-3488,-720,1123.2,9412.8,982.3804558316498,965071.36,9456.0,7872,10688,923.2,10069.888134433271,Backhand Tennis
-1680.0,331.78306165324346,110080.0,-1664.0,-2096,-1232,323.2,-5113.6,1072.3390508603143,1149911.0400000005,-5112.0,-6768,-3632,982.4,6648.0,857.9118835871201,736012.8,6384.0,5360,7904,776.0,8553.783312663467,Backhand Tennis
-443.2,924.2143474324557,854172.1600000001,-672.0,-1584,1136,769.6,-7795.2,789.6871279183928,623605.76,-7984.0,-8992,-6736,690.5600000000002,3457.6,1376.1944048716375,1893911.0400000003,3664.0,864,4944,1034.88,8539.119804757396,Backhand Tennis
2720.0,1090.0301914083932,1188165.8181818184,2176.0,1904,5344,907.6363636363636,-6759.272727272727,2735.190639555266,7481267.834710745,-5200.0,-12880,-4800,2270.9421487603304,7381.818181818182,979.3984998393673,959221.4214876036,7120.0,6240,9456,809.2561983471074,10371.952924646079,Shake
4315.2,3233.1803785127727,10453455.36,5816.0,-2592,7120,2613.76,-16867.2,4358.464610387469,18996213.759999994,-17504.0,-21520,-7648,3664.0,13734.4,5470.97627850825,29931581.439999994,14008.0,1920,20304,4444.8,22175.59762982725,Shake
-13899.2,4626.08146923506,21400629.76,-15384.0,-18928,-3184,3750.72,18809.6,13250.481313522163,175575255.04000002,21472.0,-2240,32640,11964.8,-7904.0,3619.5593101923328,13101209.6,-7392.0,-13824,-2432,3212.8,24687.284759568032,Shake
5222.4,6178.84369765088,38178109.44,7008.0,-6224,13472,5091.84,-23217.6,11071.644965406002,122581322.24000002,-28000.0,-32624,-272,9325.76,9710.4,17246.670746552794,297447651.83999985,3176.0,-9616,32640,16164.48,25702.573405789546,Shake
-6025.6,6281.809471800301,39461130.24,-8272.0,-11856,8720,5162.879999999999,10483.2,24031.375544483504,577507010.5600001,18752.0,-32400,32640,20572.160000000003,-10480.0,9796.869377510347,95978649.59999998,-12920.0,-20288,15056,7014.4,16001.116761026402,Shake
3472.0,8213.213159293993,67456870.40000002,4256.0,-7600,14112,7478.4,-622.4,24116.14716823564,581588554.24,-2504.0,-32624,32592,21368.0,4921.6,19874.0072416209,394976163.84,-1024.0,-20640,32592,17857.920000000002,6055.106301296451,Shake
6467.2,9170.263734484412,84093736.96000002,8856.0,-5648,18160,8444.8,-13424.0,23048.14633761249,531217049.6,-25216.0,-32624,31440,19923.2,5166.4,18065.03656901917,326345546.23999995,7168.0,-20960,27872,16481.6,15770.863666901696,Shake
-2512.0,6724.855388779747,45223680.0,-5536.0,-8944,11664,5958.4,14168.0,16109.203729545416,259506444.8,15680.0,-12336,32640,14209.6,-10422.4,10488.405057014152,110006640.64000005,-13880.0,-21360,11376,8885.12,17767.070376401396,Shake
8070.4,5395.086119794567,29106954.239999995,8704.0,-1152,15328,4462.72,-19091.2,13023.65562198264,169615605.75999996,-22336.0,-32624,3824,11974.4,10891.2,15845.487615090928,251079477.76,10048.0,-12640,32560,14158.4,23414.173293968764,Shake
-4238.4,6950.313995784651,48306864.63999999,-7064.0,-10336,12832,5515.84,8324.8,24602.674118070987,605291573.76,18456.0,-32560,32640,21632.64,-11128.0,10277.631478117904,105629708.79999998,-13600.0,-22080,13520,7651.2,14529.236511255504,Shake
4065.6,9080.601072616284,82457315.84,4792.0,-8528,16304,8120.000000000003,-4470.4,22062.004492792585,486732042.24,-6600.0,-32624,32352,18880.0,5620.8,19791.211043288888,391692034.56,3080.0,-22912,32432,17681.6,8252.694842292425,Shake
3540.8,7686.464112971582,59081730.56000001,6712.0,-8032,13248,6887.039999999999,-9670.4,24191.907089768683,585248368.64,-18696.0,-32624,32624,20942.72,5089.6,21827.964977065545,476460055.04,4352.0,-23712,32576,20648.0,11487.294240159428,Shake
-2740.8,3622.8328363312603,13124917.760000002,-2520.0,-7616,4256,2981.76,11044.8,15915.83471138099,253313794.56,14032.0,-17200,31280,14289.6,-12851.2,9331.942357301614,87085148.16,-14944.0,-24192,6128,7836.160000000002,17165.4575563834,Shake
5045.818181818182,487.4225007269115,237580.69421487604,4816.0,4384,5936,425.2561983471074,-5586.909090909091,443.6578236240289,196832.26446280992,-5664.0,-6272,-4896,395.3719008264463,3760.0,566.0966830369655,320465.4545454546,3600.0,3216,5136,436.3636363636364,8414.953019123137,Midair-S
4923.2,627.1938775211378,393372.16,4992.0,3968,5856,530.5600000000002,-3760.0,1427.0349680368736,2036428.8,-4088.0,-5712,-928,1168.0,9427.2,1917.796068407692,3677941.7600000007,10248.0,5888,11680,1714.56,11280.407708943858,Midair-S
1686.4,1737.9447171875174,3020451.84,1552.0,-1136,3920,1612.8,-449.6,1869.89899192443,3496522.2399999993,152.0,-3696,1888,1573.4399999999996,7356.8,3172.4719951482625,10064578.559999997,8072.0,400,10480,2567.04,7560.991427055053,Midair-S
-3576.0,755.9132225328514,571404.8,-3664.0,-4624,-2240,689.6,-3468.8,886.0533618242188,785090.5599999998,-3472.0,-4992,-2288,748.8,-8022.4,4733.465267644836,22405693.44,-6304.0,-15856,-1424,4033.28,9443.47664793004,Midair-S
-3124.8,946.1142425732739,895132.1599999998,-3648.0,-4000,-1744,883.8399999999998,-5222.4,1073.722794765949,1152880.64,-5480.0,-6400,-3520,960.0,-15643.2,2720.790943824976,7402703.36,-14976.0,-19712,-12176,2423.04,16785.33714406714,Midair-S
-4332.8,1337.1980257239388,1788098.5599999996,-4120.0,-6352,-2112,1139.2,-6160.0,1599.9519992799787,2559846.4,-6872.0,-8048,-3936,1516.8,-5926.4,7969.587632995826,63514327.04000001,-8088.0,-15776,10704,6728.320000000002,9583.369595293714,Midair-S
-900.8,2142.459745246104,4590133.760000002,-456.0,-5216,1104,1811.52,-4076.8,1793.7676995642441,3217602.5600000005,-3768.0,-6864,-912,1490.56,20449.6,1689.5795453307312,2854679.0400000005,20816.0,17088,22864,1377.2800000000002,20871.46087460099,Midair-S
-2304.0,2388.4843729863505,5704857.6,-1984.0,-6240,976,2131.2,-5264.0,2795.5896694615253,7815321.6000000015,-4256.0,-12016,-1792,2124.8,16587.2,2794.811650183246,7810972.159999997,16376.0,12400,20896,2500.8,17554.296221723045,Midair-S
-3875.2,2918.7947101500645,8519362.559999999,-4512.0,-7152,416,2630.4,-18280.0,2645.87225693154,7000639.999999999,-17408.0,-22640,-14880,2368.0,28.8,8753.511533093448,76623964.16,-3968.0,-9440,13056,8111.3600000000015,18686.262453471,Midair-S
-101.8181818181818,596.3778268821656,355666.5123966942,16.0,-1216,640,507.7685950413223,-1819.6363636363642,1043.5651543650538,1089028.2314049585,-1728.0,-3520,-608,934.8760330578513,7979.636363636364,298.9506717373812,89371.5041322314,7920.0,7504,8400,265.7851239669422,8185.110868759463,Backhand Tennis
-4200.0,1933.82026052061,3739660.8,-4360.0,-7264,-1552,1752.0,-9291.2,3228.608517612502,10423912.959999997,-10000.0,-13424,-3824,2796.16,11308.8,1744.9656042455392,3044904.96,12016.0,8048,13408,1523.84,15226.797262720745,Backhand Tennis
-15838.4,6174.770654850267,38127792.64,-15120.0,-24400,-7920,5332.8,-13009.6,9603.480569043704,92226839.04,-16240.0,-22464,8096,7536.959999999999,14572.8,2879.340368903961,8290600.959999997,15008.0,8752,18576,2365.44,25148.978240874923,Backhand Tennis
-14062.4,8539.211991747248,72918141.44000001,-15648.0,-23904,-2064,8222.399999999998,22057.6,6458.576734854205,41713213.44000001,21368.0,12992,32272,5523.2,9048.0,5134.914527039374,26367347.2,7424.0,2256,17024,4496.0,27679.50714012083,Backhand Tennis
1899.2,1557.5989727782946,2426114.559999999,2792.0,-944,3216,1391.36,3515.2,4778.3193028511605,22832335.35999999,1952.0,-1264,14112,3831.04,3064.0,1698.974749665221,2886515.2,2808.0,880,5744,1497.6,5035.045946165735,Backhand Tennis
4781.090909090909,2008.654070155864,4034691.173553719,5872.0,224,6720,1635.702479338843,1474.909090909091,431.3162633245638,186033.71900826445,1392.0,1040,2672,299.90082644628103,-4983.272727272727,2380.5794974756986,5667158.743801652,-4160.0,-10864,-2592,1846.2148760330572,7061.670778351125,Shake
-9568.0,5008.90471061289,25089126.4,-9656.0,-15648,-1552,4310.4,3838.4,2408.491112709366,5800829.44,3976.0,0,6992,2030.4,-12513.6,8004.662481329241,64074621.44000001,-14752.0,-20928,5296,6426.56,16213.269982332375,Shake
4195.2,8038.393630570725,64615772.16,7912.0,-14656,10352,6481.920000000001,-4984.0,9730.174099161844,94676288.0,-2504.0,-19520,8480,8643.2,29688.0,5193.90781589354,26976678.4,32632.0,16816,32640,4068.8,30394.363014216964,Shake
-12633.6,7360.303298098523,54174064.63999999,-17192.0,-19104,2576,6551.68,-3739.2,5414.60448786428,29317941.76,-6248.0,-8672,7296,4696.960000000001,-3769.6,20929.79588624791,438056355.83999985,-5312.0,-32576,31760,17996.8,13703.990286044424,Shake
-26956.8,4993.21933826264,24932239.36,-28264.0,-32624,-19456,4458.24,2684.8,19783.248897994486,391376936.96,8616.0,-31280,26768,17207.04,-9912.0,27621.618200243087,762953792.0,-27000.0,-32624,32640,25004.8,28846.576248837573,Shake
-13251.2,7309.968382968562,53435637.76000001,-13768.0,-25264,-3344,6326.4,-3321.6,11608.31745947706,134753034.23999995,-5520.0,-16368,20544,9651.2,16972.8,20636.677934202493,425872476.16000015,30296.0,-27520,32640,17863.04,21787.68615158572,Shake
-26772.8,5139.323784312484,26412648.959999993,-26888.0,-32608,-20128,4990.4,9380.8,20417.460825479742,416872706.56000006,9608.0,-28736,32640,17652.8,-20480.0,20941.819290596508,438559795.2000001,-32464.0,-32624,31440,16694.4,34988.750027401664,Shake
-12113.6,9956.29347900111,99127779.84000002,-11904.0,-32624,288,8247.999999999998,-9124.8,11515.01903428735,132595663.35999998,-11456.0,-31376,9408,8959.679999999997,20804.8,17492.480377579388,305986869.76000005,32608.0,-15136,32640,14959.680000000002,25745.698340499526,Shake
-24971.2,5715.71442253722,32669391.36,-23384.0,-32384,-17440,5216.640000000001,9760.0,17457.696709474592,304771174.40000004,6936.0,-16528,32640,15734.4,-24059.2,14927.21121174347,222821634.55999997,-32544.0,-32624,13408,11424.32,36023.09723052697,Shake
-18878.4,8407.339878939118,70683363.84000002,-18512.0,-32624,-7568,6859.2,-5380.8,20909.71684552424,437216258.5600001,-11064.0,-32560,30128,17090.88,22019.2,16616.520049637347,276108738.55999994,32264.0,-16320,32640,13781.12,29499.019709814085,Shake
-17440.0,7085.601400022442,50205747.2,-15192.0,-32448,-11568,5542.4,6724.8,16331.611633883535,266721538.56,3200.0,-17424,32496,14318.4,-26870.4,12582.77313790565,158326179.83999997,-32624.0,-32624,9216,8543.359999999999,32732.169668385868,Shake
-19620.8,8982.075804623339,80677685.75999999,-18616.0,-32624,-6848,7739.2,-8540.8,15894.847748877624,252646184.96000004,-13360.0,-31280,22032,13312.64,21544.0,16663.218032541008,277662835.1999999,31800.0,-14672,32640,14484.8,30365.52310236068,Shake
-26702.4,4862.6074322322165,23644951.04,-23816.0,-32624,-21040,4698.88,10592.0,17306.64908062794,299520102.39999986,8248.0,-11648,32640,15712.0,-25446.4,12251.163954498365,150091018.24,-32264.0,-32624,6704,9200.64,38376.13715214183,Shake
-16043.2,10372.769396839014,107594344.96,-15864.0,-32624,-2976,9182.4,-16876.8,10541.411032684382,111121346.56,-15656.0,-32576,1584,8582.4,25428.8,12222.075345864956,149379125.76,32104.0,-4912,32640,9602.88,34479.47960628176,Shake
-21972.8,4385.670046868551,19234101.76,-20008.0,-28848,-17168,3848.96,11452.8,17027.489567167555,289935400.95999986,10064.0,-11376,32640,15647.999999999995,-25433.6,10770.883893163089,116011939.84000002,-32296.0,-32624,1920,8497.28,35508.28884415581,Shake
-10116.8,9455.623816544312,89408821.76000002,-6912.0,-27024,1920,8383.359999999999,-17737.6,8023.961555241899,64383959.04,-15272.0,-32304,-8432,6817.92,23062.4,14150.871091208484,200247152.64,30672.0,-10320,32640,11747.84,30803.350300900715,Shake
-28019.2,4358.546840404494,18996930.56,-27808.0,-32624,-22640,4316.8,10244.8,16792.961649453024,282003560.96000004,7136.0,-13648,32640,15221.76,-22835.2,18157.0898813659,329679912.96,-32328.0,-32624,26400,13175.679999999997,37569.640066415326,Shake
-10038.4,13345.274183770072,178096343.04000002,-7192.0,-32624,4832,11521.28,-5889.6,11507.327363032651,132418583.04,-2824.0,-28960,7328,9426.240000000002,26926.4,9345.970888035125,87347171.84000002,32632.0,6224,32640,7919.039999999999,29334.073697323387,Shake
-4573.090909090909,40.831036647616585,1667.1735537190084,-4576.0,-4640,-4512,32.793388429752085,-1928.7272727272727,406.22722949535415,165020.5619834711,-1824.0,-2640,-1408,355.70247933884286,6590.545454545455,145.2798951468657,21106.2479338843,6608.0,6416,6928,117.95041322314044,8250.359916015886,Midair-S
-3851.2,506.5232077605132,256565.7599999999,-3920.0,-4544,-3072,449.6,-4012.8,752.0612740993913,565596.1599999999,-4032.0,-4912,-2848,684.8,7364.8,134.06625227849102,17973.76,7360.0,7120,7568,110.4,9229.007764651626,Midair-S
-3209.6,100.22694248554129,10045.44,-3256.0,-3328,-3008,87.68000000000002,-3625.6,559.0025402446754,312483.84,-3520.0,-4688,-2832,462.72,6358.4,633.7777528440076,401674.2400000001,6344.0,5328,7184,566.4,7992.231107769593,Midair-S
-3236.8,390.54751311460166,152527.36,-3400.0,-3584,-2400,305.9199999999999,-992.0,879.0977192553737,772812.8,-528.0,-2672,-176,755.2,4692.8,311.5730411958005,97077.76,4840.0,4160,5008,275.84,5786.47648228177,Midair-S
-3056.0,367.6520093784338,135168.0,-3056.0,-3456,-2384,310.4,2750.4,1203.8647100069009,1449290.24,3376.0,416,3936,1045.12,3961.6,248.6134348743044,61808.64,4024.0,3552,4240,230.4,5709.4755205710435,Midair-S
-2723.2,172.14691400080338,29634.559999999994,-2784.0,-2848,-2288,129.28000000000014,5387.2,856.9206264293092,734312.9599999998,5376.0,4160,6464,792.0,4644.8,587.8361676521782,345551.35999999987,4320.0,4096,5760,517.76,7616.554937765499,Midair-S
-1892.8,257.40116549852684,66255.36,-1992.0,-2144,-1312,215.04,7651.2,599.9807996927901,359976.96,7912.0,6592,8288,540.1600000000002,7070.4,773.826233724342,598807.04,7088.0,5920,8256,689.6,10588.395036076054,Midair-S
-752.0,196.22028437447545,38502.4,-760.0,-1056,-320,140.8,7425.6,353.3392703903714,124848.63999999998,7544.0,6800,7824,305.27999999999986,8710.4,172.65178829076748,29808.64,8688.0,8448,8976,144.0,11470.662906737343,Midair-S
56.0,217.7705214210592,47424.0,-40.0,-176,544,177.6,5155.2,1130.7325766953036,1278556.16,5416.0,2944,6544,949.76,7816.0,931.0914026023438,866931.1999999998,7896.0,6528,8928,849.6,9363.176760053182,Midair-S
462.4,169.54716158048768,28746.24,416.0,256,672,161.6,1342.4,996.7743174861599,993559.04,1896.0,-704,2368,840.64,6491.2,636.4320545038566,405045.76,6496.0,5552,7328,580.8,6644.661688904861,Midair-S
902.4,557.8105771675541,311152.64,720.0,240,1792,510.08,-1051.2,1015.9949606174235,1032245.76,-688.0,-2592,224,903.04,6497.6,648.0474056733814,419965.44000000006,6480.0,5648,7728,520.0,6643.655090385112,Midair-S
1467.2,479.5224290896099,229941.76,1560.0,832,2336,415.36,-1147.2,684.5326580960179,468584.96,-1240.0,-2240,-64,600.0,7992.0,692.2011268410361,479142.4000000001,7656.0,7392,9344,593.6,8206.144507623541,Midair-S
2427.2,128.20982801642003,16437.760000000002,2408.0,2288,2640,116.8,384.0,843.914687631398,712192.0000000001,264.0,-1152,1664,729.6,9755.2,678.182984156931,459932.1600000001,9680.0,8864,10672,625.6,10059.954417391762,Midair-S
2708.8,181.16776755261958,32821.76,2672.0,2512,3136,141.12000000000006,2721.6,483.42511312508367,233699.84,2848.0,1728,3200,394.56000000000006,9804.8,524.5365192243529,275138.55999999994,10080.0,8832,10336,455.6800000000003,10529.90061871431,Midair-S
3331.2,69.30050504866469,4802.56,3304.0,3248,3472,55.679999999999936,3297.6,532.2231111103688,283261.43999999994,3584.0,2464,3808,490.88,8531.2,232.5015268767068,54056.96000000001,8640.0,8048,8768,200.3199999999997,9734.08612248731,Midair-S
2483.2,481.00162161888807,231362.56000000003,2296.0,1968,3264,435.84,5297.6,767.2813304127764,588720.6400000001,5456.0,3888,6192,654.4,7179.2,507.9363739682362,257999.35999999996,7088.0,6592,8000,451.84,9261.304478311898,Midair-S
-1016.7272727272727,634.4619898220268,402542.0165289256,-1248.0,-1584,112,579.4380165289258,-475.6363636363636,542.7189583648199,294543.86776859505,-752.0,-960,704,453.5537190082644,7742.545454545455,335.0952004855184,112288.79338842977,7552.0,7376,8368,303.8677685950413,7823.488634440721,Backhand Tennis
3361.6,2231.1189659002944,4977891.839999999,3080.0,352,7136,1918.72,5371.2,2949.5604011445503,8699906.559999997,5368.0,1072,9728,2648.0,8595.2,1422.8813583711044,2024591.36,8056.0,7008,11024,1274.2400000000002,10678.3709918695,Backhand Tennis
12027.2,2486.5878950883675,6183119.3599999985,11896.0,8192,16832,1997.44,11388.8,907.9996475770239,824463.36,11216.0,10096,12896,753.9199999999997,11761.6,493.3840694631313,243427.84,11664.0,11152,12624,414.4,20314.860074339667,Backhand Tennis
27894.4,4655.880135914154,21677219.84,30152.0,19200,32640,4177.92,-217.6,8012.36867848703,64198051.83999999,528.0,-11040,10480,7337.6,8204.8,953.8147409219464,909762.56,7992.0,6800,10320,744.9599999999997,29076.857535847987,Backhand Tennis
13785.6,3918.9105424849895,15357859.839999998,15176.0,6576,19024,3402.88,-8870.4,2097.8703105768955,4401059.84,-8600.0,-11840,-4720,1716.48,9275.2,1024.7509746274943,1050114.56,9576.0,7392,10448,911.36,18834.970097135807,Backhand Tennis
-280.72727272727275,396.0158607726098,156828.56198347107,-64.0,-1008,64,351.47107438016525,3672.727272727273,1150.8957057960706,1324560.925619835,3120.0,2960,6864,835.9669421487604,8346.181818181818,1502.719342221828,2258165.421487604,7568.0,7328,12400,1123.1735537190082,9122.8550554986,Shake
-539.2,951.6449758181883,905628.16,-328.0,-1936,832,859.2,8883.2,1569.6285420442637,2463733.76,8920.0,5488,11104,1174.4,15742.4,3028.6901195071114,9172963.84,16296.0,9808,19312,2600.0,18083.836336352968,Shake
1811.2,362.8015435468819,131624.96000000002,1920.0,880,2208,264.32,-2900.8,3967.95516103698,15744668.160000002,-3280.0,-7968,3696,3476.8,-1460.8,4641.247004846865,21541173.759999994,-2176.0,-6800,6944,3995.2,3718.7393993126216,Shake
4283.2,1042.0177349738342,1085800.9599999995,4264.0,2528,5520,910.4,-4945.6,4182.342769310043,17491991.04,-6880.0,-8352,4528,3447.36,-1348.8,4140.996904128279,17147855.36,-2608.0,-6160,7072,3491.839999999999,6680.121483925273,Shake
-1859.2,2636.8446598159703,6952949.76,-2928.0,-4432,3008,2274.56,17499.2,3733.5310042907104,13939253.76,17840.0,10048,22176,3172.8,22952.0,5394.293874085838,29098406.4,23464.0,12304,29296,4651.2,28921.841733886864,Shake
1278.4,2371.634508097738,5624650.24,1680.0,-2752,3872,2151.9999999999995,2820.8,6295.771482511099,39636738.56,2560.0,-6896,12400,5508.8,5708.8,6258.265778951865,39165890.56,5480.0,-3936,15392,5465.6,6494.7376113281125,Shake
3966.4,384.363161606312,147735.04,3896.0,3424,4576,327.68,-6747.2,2477.3048581068906,6137039.360000001,-8008.0,-8880,-1264,2054.7200000000007,-3657.6,3024.247185664559,9146071.040000003,-4960.0,-6368,3024,2498.56,8639.159366512462,Shake
-1728.0,3536.44160138408,12506419.2,-3216.0,-5200,3872,3244.8,14107.2,5922.421342660449,35075074.559999995,15984.0,1600,20048,4873.92,20096.0,6768.4349742019385,45811712.0,22152.0,6752,27408,5657.6,24613.985695941246,Shake
216.0,2682.892767145195,7197913.6000000015,408.0,-4544,3520,2294.4,5083.2,5878.810437494986,34560412.160000004,4656.0,-3760,14208,5169.6,8590.4,6010.275787349528,36123415.04000001,8552.0,-384,18240,5246.4,9984.014743578857,Shake
3326.4,220.7130263486956,48714.24,3304.0,3072,3632,212.8,-7576.0,1538.685152979647,2367551.9999999995,-7984.0,-9312,-4672,1299.2,-3147.2,1160.4148223803418,1346562.56,-3568.0,-4400,-704,984.96,8852.433608901001,Shake
-288.0,2366.475184742067,5600204.800000002,-928.0,-3008,3424,2124.8,7763.2,5118.673828248876,26200821.76,10864.0,-2640,12080,4463.3600000000015,10577.6,4924.9468464136735,24255101.44,13200.0,912,14944,4369.280000000002,13123.865284282676,Shake
-2039.2727272727273,304.219146761341,92549.28925619832,-1888.0,-2544,-1696,279.801652892562,-560.0,300.4965587459893,90298.1818181818,-608.0,-880,16,241.45454545454547,8013.090909090909,273.8179403596666,74976.26446280992,8000.0,7584,8640,194.1157024793388,8287.451910783779,Midair-S
-2644.8,247.35917205553542,61186.55999999999,-2528.0,-3136,-2400,213.76000000000005,-1960.0,1193.1377120852396,1423577.6,-1952.0,-3728,-288,1064.0,9608.0,349.4635889474038,122124.80000000002,9592.0,9152,10192,308.8,10156.29022035113,Midair-S
-2473.6,215.9940739927834,46653.43999999999,-2408.0,-3104,-2336,130.55999999999997,-4940.8,1087.7129032975567,1183119.36,-4752.0,-6496,-3600,981.76,8670.4,762.5959874009303,581552.64,9032.0,6976,9440,632.6400000000001,10281.344161149358,Midair-S
-1928.0,566.2395252894307,320627.2,-2192.0,-2416,-752,454.4,-3920.0,1615.1284778617455,2608639.9999999995,-4328.0,-5776,-656,1292.8,5025.6,709.7384306911949,503728.6400000001,4664.0,4336,6512,600.32,6658.846698941192,Midair-S
-1083.2,988.174559478233,976488.96,-1272.0,-2336,1008,740.8,299.2,2395.088841776021,5736450.560000001,-576.0,-2464,4336,2128.64,3185.6,1330.4545989999058,1770109.4400000004,3792.0,672,4608,1159.36,3378.0009236233195,Midair-S
729.6,761.0754496106152,579235.8400000001,568.0,-384,1808,716.8,4012.8,1929.4540574991672,3722792.96,4504.0,1008,6624,1693.44,3184.0,906.0578347986403,820940.8,3536.0,1792,4272,809.6,5174.237721635913,Midair-S
1819.2,516.6811008736433,266959.36,1864.0,992,2480,452.8,4838.4,1056.8529888305184,1116938.2399999998,4680.0,3376,6576,903.68,3336.0,368.3650363430275,135692.79999999993,3440.0,2736,3920,326.4,6152.113392973182,Midair-S
4220.8,737.7995391703629,544348.1599999998,4432.0,2768,5040,656.64,6051.2,563.4544879579894,317480.96,5888.0,5328,7168,471.04,4233.6,654.9533113131042,428963.84,4272.0,3232,5232,567.68,8506.206148454201,Midair-S
6059.2,419.1297651086117,175669.75999999998,6024.0,5264,6640,366.4,7990.4,582.7691138006542,339619.84,8184.0,7072,8816,504.32000000000005,5331.2,576.3909784165606,332226.5600000001,5392.0,4432,6080,537.6,11357.028231011844,Midair-S
7249.6,537.2498859934733,288637.4400000001,7216.0,6656,8160,456.0,4809.6,1015.6963325718964,1031639.0400000002,4480.0,3280,7040,798.72,4630.4,1234.9512702936904,1525104.64,4464.0,2864,6624,1072.0,9855.432840824396,Midair-S
6932.8,794.2851880779348,630888.9600000001,7112.0,5808,7968,740.8,248.0,987.3244654114472,974809.6,-192.0,-752,2384,830.4,4028.8,708.2345374238678,501596.16,4008.0,3136,5456,604.8,8022.247146529457,Midair-S
6665.6,563.699778250799,317757.43999999994,6480.0,6128,7792,455.0400000000001,-876.8,441.8318232087861,195215.36,-896.0,-1536,-160,371.2,4438.4,591.7491360365473,350167.04,4328.0,3712,5584,512.0,8055.954081299124,Midair-S
7091.2,859.6572340183034,739010.56,6912.0,6160,8272,803.2,-2478.4,201.6825227926307,40675.84,-2400.0,-2832,-2224,183.68,5321.6,1027.1252309236688,1054986.24,4864.0,4096,7056,910.72,9205.813954235658,Midair-S
8876.8,504.33258867537,254351.36,9024.0,8096,9552,455.0400000000001,-1728.0,614.866489573143,378060.79999999993,-1896.0,-2624,-544,473.6,6912.0,478.07614456276735,228556.8,6752.0,6416,7760,435.2,11382.412145059587,Midair-S
9931.2,233.6273956538488,54581.76,10000.0,9568,10224,213.75999999999985,-99.2,373.1672011310748,139253.76,-56.0,-672,432,316.8,5584.0,533.7385127569491,284876.8,5608.0,4656,6480,416.0,11393.841761232252,Midair-S
9942.4,327.91803854012056,107530.24,10064.0,9472,10320,299.5200000000001,684.8,796.9156542570862,635074.5599999999,288.0,48,2448,677.12,3774.4,232.13237602712812,53885.44,3816.0,3296,4032,191.04,10656.752045534324,Midair-S
9572.8,534.0765488204852,285237.75999999995,9448.0,8880,10416,479.35999999999984,2454.4,411.246689956284,169123.83999999994,2304.0,1904,3008,384.0,4091.2,144.0088886145574,20738.56,4088.0,3888,4288,136.0,10695.816782275208,Midair-S
7185.6,777.8188992304057,605002.24,7008.0,6144,8736,654.72,1403.2,567.9459129177708,322562.55999999994,1448.0,640,2096,520.0,2960.0,287.9110973894546,82892.8,2928.0,2544,3344,265.6,7897.051196491005,Midair-S
4745.6,747.2256954896559,558346.24,4488.0,3936,6176,645.1200000000001,337.6,1435.592365541138,2060925.44,-168.0,-1152,2832,1256.3200000000004,3025.6,415.350261827292,172515.84000000005,3144.0,2224,3472,324.16,5638.1688942421715,Midair-S
3806.4,314.87495930924706,99146.24,3736.0,3392,4192,286.0800000000001,635.2,869.6128793894443,756226.5599999998,568.0,-592,1840,798.4,4491.2,537.7547396350868,289180.16000000003,4544.0,3520,5456,440.96,5921.4050224587745,Midair-S
3713.6,544.7735676407218,296778.2400000001,3632.0,3104,4640,520.0,366.4,1177.114030160205,1385597.44,104.0,-1088,2176,1050.88,6259.2,567.2581070377048,321781.76,6072.0,5696,7680,416.64,7287.157097249928,Midair-S
-78.54545454545455,833.3542697094526,694479.3388429751,-256.0,-1040,1376,723.0413223140496,-306.90909090909093,1276.9931625463319,1630711.5371900825,-960.0,-1408,2352,1090.115702479339,7058.909090909091,573.3603427554333,328742.08264462807,7312.0,5616,7584,441.3884297520661,7066.0144446662025,Backhand Tennis
8614.4,4684.062236990452,21940439.04,8440.0,2368,14240,4518.4,9582.4,6407.856977180437,41060631.04000001,8136.0,2624,18624,5850.879999999999,8937.6,4317.1261552102005,18637578.24,8592.0,4064,15424,3980.8,15681.548739840715,Backhand Tennis
24568.0,7752.366554801187,60099187.20000001,25288.0,13104,32640,7364.8,10998.4,10128.607122403355,102588682.24,16400.0,-11776,19136,8480.640000000001,8932.8,3816.3139493495564,14564252.160000002,8552.0,1552,14560,3080.0,28361.00037727865,Backhand Tennis
12284.8,10708.537872184044,114672783.35999998,8232.0,2432,32640,9221.76,-24944.0,8312.90466684179,69104383.99999999,-27600.0,-32624,-8048,7084.8,4601.6,2338.7512565469633,5469757.44,4728.0,896,8768,1881.6,28183.22496805502,Backhand Tennis
-105.6,1025.3541046877417,1051351.0399999998,-400.0,-1328,1888,821.76,1323.2,1457.0730112111746,2123061.76,1648.0,-2832,2416,893.1200000000001,5580.8,734.1123619719258,538920.96,5264.0,4800,7072,581.76,5736.491805973405,Backhand Tennis
4366.545454545455,2406.308843007041,5790322.247933885,3488.0,2688,11440,1594.710743801653,-2637.090909090909,1122.6735504261453,1260395.900826447,-2160.0,-4736,-1360,970.8429752066116,6459.636363636364,3275.7939571326483,10730826.049586777,5632.0,3888,16064,2165.950413223141,8230.909404180971,Shake
13579.2,1829.9558901787768,3348738.5600000005,13648.0,9408,15872,1301.7599999999998,-1886.4,2059.9209305213635,4243274.24,-1728.0,-4768,944,1812.48,14428.8,4856.719814854468,23587727.36000001,15840.0,4560,20768,3965.44,19903.352658283482,Shake
-4662.4,9660.354809218963,93322455.03999998,-4544.0,-19168,7856,8937.6,-5315.2,5551.049140477861,30814146.56,-5488.0,-14992,4464,3948.8,-16851.2,11622.14669327487,135074293.76,-17776.0,-32512,1632,10352.0,18274.360898263996,Shake
22174.4,14683.03785461306,215591600.64,30784.0,-8352,32640,12994.24,-10216.0,7129.152768737671,50824819.2,-11216.0,-22128,800,5982.4,11558.4,22397.771546294513,501660170.2399999,24496.0,-26112,32640,20843.52,27012.35424615929,Shake
808.0,12556.647195808282,157669388.79999998,7424.0,-21184,15040,10993.6,-1220.8,4491.516910799735,20173724.160000008,16.0,-13072,3648,3176.96,-11630.4,16483.9644940166,271721085.43999994,-6800.0,-32624,10192,15284.48,11722.176453201853,Shake
14924.8,18157.385961641063,329690664.96000016,19480.0,-14064,32640,16764.800000000007,-8662.4,8665.67799078641,75093975.03999998,-9888.0,-24128,2224,7619.200000000003,2344.0,25434.281873094038,646902694.4,-4192.0,-29456,32640,23510.4,17414.96956069691,Shake
6012.8,15298.406170578686,234041231.36,9416.0,-22432,24672,11722.88,-2267.2,4227.865201257013,17874844.16,-3616.0,-9200,6240,3544.9600000000005,-2976.0,20374.37135226508,415115008.0,2992.0,-32624,28320,17670.4,7081.7042920472195,Shake
14388.8,19933.299399748157,397336424.96000016,25280.0,-17008,32640,18311.04,-9782.4,12944.174436401885,167551651.84,-14264.0,-23168,15776,9896.96,1536.0,28021.601724384,785210163.2000003,4072.0,-32336,32608,27484.8,17466.888996040478,Shake
2664.0,6352.754615125631,40357491.2,-208.0,-2160,16144,5060.8,1315.2,1730.8835200555814,2995957.76,1992.0,-2000,3648,1474.56,2348.8,4294.948400155698,18446581.76,2040.0,-2800,13648,2853.76,3787.2824663602787,Shake
-1490.909090909091,115.34096059112152,13303.537190082649,-1456.0,-1824,-1392,76.95867768595045,-2856.7272727272725,555.4878430727831,308566.7438016529,-2656.0,-3728,-2272,509.88429752066133,-7922.909090909091,806.3404936722063,650184.9917355372,-7632.0,-10080,-7264,583.1404958677688,8553.139136650887,Midair-S
-977.6,249.35885787354735,62179.84,-1096.0,-1232,-496,212.48,-3808.0,603.5627556435205,364288.00000000006,-3848.0,-4672,-2960,537.6,-11659.2,652.1663591446587,425320.96,-11856.0,-12576,-10528,575.3599999999999,12304.207020365027,Midair-S
-846.4,204.95619044078663,42007.039999999986,-824.0,-1216,-560,168.0,-3452.8,312.70075151812483,97781.76,-3624.0,-3776,-2864,279.04,-10401.6,1302.7468825524013,1697149.4400000004,-9640.0,-12752,-9200,1185.92,10992.338393626716,Midair-S
-600.0,210.47755224726458,44300.8,-560.0,-960,-336,179.2,-2678.4,165.84522905407925,27504.640000000007,-2712.0,-2864,-2432,150.4,-5700.8,1990.2102803472806,3960936.96,-5504.0,-8992,-2832,1704.0,6327.159489059843,Midair-S
-20.8,725.0330751076118,525672.9600000001,-88.0,-896,1264,654.4,-2123.2,725.3507841038017,526133.76,-2056.0,-3200,-880,606.4,-1049.6,652.6431184039252,425943.0399999999,-1240.0,-2064,192,542.0800000000002,2368.558852973681,Midair-S
4193.6,1502.5942366454092,2257789.44,3936.0,1856,6448,1272.0,382.4,823.1047563949561,677501.4400000001,40.0,-608,1760,711.6800000000002,3046.4,1433.4285611777102,2054717.4400000004,3200.0,624,5280,1219.2,5197.409323884353,Midair-S
10798.4,2524.417207990787,6372682.239999997,11688.0,6960,13536,2309.12,2878.4,1197.0833889082248,1433008.6400000004,3208.0,1008,4784,1045.12,7097.6,585.0489210313955,342282.24000000005,7056.0,5872,7888,467.2,13238.827549296047,Midair-S
13144.0,506.2299872587557,256268.8,13312.0,11952,13664,401.6,6368.0,812.6992063488188,660480.0,6208.0,5136,7664,723.2,5604.8,714.9350739752526,511132.16,5632.0,4480,6992,568.0,15643.846810807117,Midair-S
8724.8,1276.5764215275167,1629647.36,8128.0,7600,11120,1104.3199999999997,7990.4,1174.038091375233,1378365.4400000002,8320.0,6368,9456,1064.3200000000004,4102.4,897.8324119789839,806103.0399999998,4008.0,2800,5616,737.28,12521.913310672613,Midair-S
4595.2,1037.1851136610092,1075752.96,4352.0,3152,6704,883.8399999999997,8153.6,842.1291112412633,709181.4400000002,8496.0,6688,9008,734.0799999999998,4284.8,960.9009106042099,923330.56,4272.0,2896,5616,828.8,10293.520633874496,Midair-S
3380.8,1235.010348134784,1525250.5600000003,3872.0,784,4960,1063.04,363.2,3764.8924765522856,14174415.360000005,-776.0,-3664,6592,3373.44,6310.4,848.2173306411513,719472.64,6280.0,5168,7440,784.0,7168.184640479066,Midair-S
3441.6,790.4858252998596,624867.8400000001,3472.0,1968,4512,686.4,-6548.8,1565.5008655379274,2450792.96,-7024.0,-8160,-3760,1389.44,5179.2,1164.5329364169995,1356136.96,5408.0,3408,6704,1013.7600000000003,9030.808637104432,Midair-S
6553.6,1091.1296164984246,1190563.8399999996,6448.0,4576,8416,896.0,-7059.2,452.14086300620966,204431.36,-7192.0,-7632,-6032,353.92000000000013,3988.8,857.816390610485,735848.96,3824.0,2848,5328,779.2,10425.56967460292,Midair-S
9259.2,458.5081896760405,210229.75999999992,9184.0,8736,10320,344.0,-4560.0,856.8892577223734,734259.2000000002,-4872.0,-5632,-3168,761.6,4270.4,365.7286425753389,133757.44000000006,4344.0,3648,4832,293.12000000000006,11169.722503267483,Midair-S
10712.0,890.6195596325066,793203.2,10424.0,9584,11968,816.0,-1020.8,733.3796833837164,537845.7600000001,-624.0,-2560,-352,632.96,3950.4,363.6226615600298,132221.44,3840.0,3504,4544,327.68,11462.749966740093,Midair-S
11971.2,280.4156914297058,78632.95999999999,12040.0,11280,12256,214.4,1172.8,645.696647041008,416924.16,1072.0,224,2464,514.56,4150.4,311.6675151503601,97136.63999999996,4200.0,3376,4512,225.92000000000007,12724.421772324275,Midair-S
10609.6,1186.40728251305,1407562.24,11096.0,7968,11664,983.36,2980.8,528.7291934440541,279554.56,3128.0,1888,3600,442.24,1801.6,461.18872492722534,212695.04,1888.0,1056,2368,410.88,11166.671095720516,Midair-S
-2402.909090909091,1068.3317032172984,1141332.6280991735,-2992.0,-3216,176,865.586776859504,-4781.090909090909,184.56112786108392,34062.809917355364,-4816.0,-5088,-4528,163.17355371900828,-6475.636363636364,719.0487747683518,517031.1404958678,-6208.0,-8160,-5616,560.9256198347108,8400.396936705722,Backhand Tennis
5168.0,2743.848392313249,7528704.000000001,4944.0,1312,9472,2400.0,-6716.8,1757.071017346766,3087298.5599999987,-6008.0,-10160,-4944,1522.5600000000004,-10345.6,574.8967211595489,330506.24000000005,-10504.0,-10944,-8896,421.7599999999998,13373.670610569112,Backhand Tennis
14443.2,3324.444639334516,11051932.16,14264.0,9632,19488,2996.8,-14739.2,2110.5546569563176,4454440.959999999,-14504.0,-18336,-11424,1760.0,-8720.0,2117.81018979511,4485120.0,-9224.0,-11152,-5072,1859.2,22402.86684511605,Backhand Tennis
20260.8,1692.7221154105594,2865308.16,20232.0,17392,22640,1454.4,-20081.6,4109.144222341192,16885066.240000002,-18784.0,-29792,-15984,3215.0399999999995,6116.8,6052.531847086804,36633141.76000001,8696.0,-4176,12752,5411.839999999998,29175.090701487115,Backhand Tennis
15910.4,4393.142000891845,19299696.64,17912.0,7648,20528,3774.72,-14854.4,10396.896029104073,108095447.04,-8264.0,-32352,-5248,9226.88,18988.8,3351.5001059227197,11232552.96,19992.0,10944,22256,2647.04,28885.43842423029,Backhand Tennis
-3538.909090909091,82.66631120513642,6833.719008264464,-3520.0,-3664,-3424,72.9917355371901,-1368.7272727272727,131.8270843388765,17378.380165289254,-1328.0,-1552,-1184,122.97520661157024,7010.909090909091,89.68779641872288,8043.900826446281,7040.0,6864,7136,78.28099173553719,7971.83405383091,Shake
-3099.2,267.35324946594534,71477.76,-3056.0,-3472,-2736,238.4,-2092.8,436.5860281777236,190607.36000000004,-2192.0,-2672,-1408,381.44,7390.4,123.82180744925344,15331.839999999995,7400.0,7104,7584,85.44000000000014,8282.684627583016,Shake
-2532.8,75.40397867486834,5685.759999999998,-2528.0,-2704,-2416,53.760000000000026,-2780.8,246.2960819826414,60661.76000000001,-2856.0,-3040,-2256,196.47999999999996,7424.0,309.67337631769385,95897.6,7584.0,6768,7696,262.4,8322.48162989862,Shake
-3174.4,386.4057970579634,149309.44,-3304.0,-3616,-2528,353.92,-1137.6,323.1405885988326,104419.83999999998,-1136.0,-1840,-768,270.4,7142.4,883.7215851160362,780963.8399999997,7080.0,5936,8288,838.4,7898.406603866377,Shake
-4576.0,477.8619047381785,228352.0,-4744.0,-5088,-3712,400.0,-689.6,555.0616542331131,308093.4400000001,-768.0,-1280,528,436.8,6860.8,276.4622216506263,76431.36000000003,6880.0,6336,7408,204.8,8275.62087096793,Shake
-4028.8,383.5864439731936,147138.55999999994,-4032.0,-4480,-3376,326.4,806.4,280.7259161531047,78807.03999999996,840.0,416,1184,243.2,6512.0,293.9823123931098,86425.59999999999,6512.0,6096,6896,275.2,7699.84768680524,Shake
-2859.2,382.0651253385998,145973.76,-3000.0,-3408,-2272,351.36,-990.4,1187.7012418954525,1410634.2399999998,-656.0,-3088,368,1047.68,6945.6,522.3185235084048,272816.64000000013,6920.0,6288,7616,488.0,7576.099006744829,Shake
-1960.0,405.482428719174,164416.0,-2016.0,-2480,-1360,353.6,-4768.0,595.1483848587678,354201.6000000001,-4912.0,-5376,-3600,496.0,8248.0,556.4343627059708,309619.19999999995,8344.0,7488,9024,499.2,9726.506464296415,Shake
-2483.2,548.3496694628346,300687.36,-2400.0,-3664,-1600,385.91999999999985,-2208.0,1015.8425074783985,1031936.0,-2000.0,-4224,-1024,848.0,6995.2,298.0297971680013,88821.76000000002,7000.0,6656,7744,217.6,7744.312059828168,Shake
-5254.4,703.1704203107522,494448.6400000001,-5512.0,-5952,-3824,609.9200000000002,-803.2,703.3378704435017,494684.16,-1112.0,-1536,592,597.76,6353.6,461.9790471439154,213424.64,6552.0,5712,6912,423.68,8283.844672614281,Shake
-5176.0,715.4075761410414,511808.0,-5384.0,-5968,-3792,603.2,1587.2,288.9584053112143,83496.95999999999,1720.0,1040,1920,255.36000000000004,6651.2,482.92707524014435,233218.56,6832.0,5840,7248,424.96,8576.050447612817,Shake
-2603.2,713.0347537112058,508418.55999999994,-2712.0,-3600,-1456,638.4,1043.2,1117.088787876774,1247887.36,1696.0,-1456,1904,929.9199999999997,6764.8,410.5987822680433,168591.36000000002,6608.0,6368,7472,360.96,7323.075550613962,Shake
-1974.4,230.44444015857704,53104.63999999999,-2064.0,-2192,-1552,199.04,-4088.0,887.1924255763232,787110.4,-4416.0,-4992,-2224,752.0,7641.6,425.62405947032653,181155.84,7504.0,7088,8304,385.92000000000013,8888.422240195388,Shake
-2504.0,344.2975457362425,118540.8,-2344.0,-3312,-2176,276.8,-3387.2,586.6591514670166,344168.96,-3376.0,-4416,-2304,446.4,7572.8,283.976337042367,80642.56000000001,7520.0,7168,8048,254.4,8665.474002038203,Shake
-4696.0,790.1554277482373,624345.6,-4560.0,-6096,-3568,673.6,-531.2,910.16798449517,828405.76,-520.0,-1968,736,819.2,6585.6,283.44847856356535,80343.04,6680.0,5968,6880,244.47999999999996,8105.8446074422145,Shake
-5956.8,815.6563982462224,665295.3600000001,-6312.0,-6800,-4496,727.04,1576.0,267.65948516725496,71641.6,1672.0,944,1808,206.4,6942.4,1117.0578498896107,1247818.24,6824.0,5616,8448,1044.8,9282.465189808148,Shake
-3131.2,676.3686568728624,457474.55999999994,-2848.0,-4432,-2416,615.04,907.2,813.3934841145459,661608.9600000001,1168.0,-576,1744,719.3599999999999,7043.2,328.8223836663192,108124.16000000002,6976.0,6736,7840,238.71999999999989,7761.062525195889,Shake
-2294.4,179.34280024578624,32163.839999999997,-2240.0,-2544,-2032,164.48000000000005,-2296.0,892.6580532320313,796838.4,-2312.0,-3600,-880,792.0,7123.2,168.6919085196442,28456.960000000006,7040.0,6960,7360,157.43999999999997,7827.890239394009,Shake
-2164.8,134.25706685310834,18024.960000000006,-2136.0,-2448,-2016,108.16000000000004,-4291.2,442.7579022445562,196034.56,-4256.0,-4864,-3600,387.84,7766.4,356.4949368504412,127088.64000000006,7712.0,7280,8304,318.07999999999987,9133.33046812607,Shake
-3862.4,913.8843690533282,835184.6399999999,-3736.0,-5264,-2432,832.0,-1380.8,811.7236968328571,658895.36,-1360.0,-2896,-160,670.4,6427.2,298.3088332584203,88988.16,6344.0,6064,7168,214.07999999999996,7624.542100349371,Shake
-5094.4,170.713326954869,29143.04,-5152.0,-5296,-4784,144.64000000000016,126.4,59.630864491469524,3555.84,88.0,80,240,52.48,6670.4,470.6529931913745,221514.24,6920.0,5744,7104,405.44000000000017,8394.231619391972,Shake
-3811.2,311.8810029482398,97269.75999999998,-3632.0,-4496,-3504,266.23999999999995,216.0,134.48568697077022,18086.4,248.0,-80,384,110.4,6488.0,188.94231924055555,35699.2,6424.0,6256,6848,160.0,7527.685264408973,Shake
